{
  "resourceType": "Bundle",
  "id": "2f705d36-3fea-453d-97cf-e428168cdae6",
  "meta": {
      "lastUpdated": "2022-09-29T12:30:02Z",
      "profile":  [
          "https://fhir.kbv.de/StructureDefinition/KBV_PR_EAU_Bundle|1.1.0"
      ]
  },
  "identifier": {
      "system": "urn:ietf:rfc:3986",
      "value": "urn:uuid:cdac23e6-4270-53c7-abf3-53e97d090da9"
  },
  "type": "document",
  "timestamp": "2022-09-29T12:30:02Z",
  "entry":  [
      {
          "fullUrl": "http://pvs.praxis-topp-gluecklich.local/fhir/Composition/edb656ba-671c-40d7-9161-b8f8c2365297",
          "resource": {
              "resourceType": "Composition",
              "id": "edb656ba-671c-40d7-9161-b8f8c2365297",
              "meta": {
                  "profile":  [
                      "https://fhir.kbv.de/StructureDefinition/KBV_PR_EAU_Composition|1.1.0"
                  ]
              },
              "extension":  [
                  {
                      "url": "https://fhir.kbv.de/StructureDefinition/KBV_EX_FOR_Legal_basis",
                      "valueCoding": {
                          "system": "https://fhir.kbv.de/CodeSystem/KBV_CS_SFHIR_KBV_STATUSKENNZEICHEN",
                          "code": "00"
                      }
                  }
              ],
              "status": "final",
              "type": {
                  "coding":  [
                      {
                          "system": "https://fhir.kbv.de/CodeSystem/KBV_CS_EAU_AU_Type",
                          "code": "ERST"
                      },
                      {
                          "system": "https://fhir.kbv.de/CodeSystem/KBV_CS_SFHIR_KBV_FORMULAR_ART",
                          "code": "e010"
                      }
                  ]
              },
              "subject": {
                  "reference": "Patient/9774f67f-a238-4daf-b4e6-679deeef3811"
              },
              "date": "2022-09-29",
              "author":  [
                  {
                      "reference": "Practitioner/20597e0e-cb2a-45b3-95f0-dc3dbdb617c3",
                      "type": "Practitioner"
                  },
                  {
                      "type": "Device",
                      "identifier": {
                          "system": "https://fhir.kbv.de/NamingSystem/KBV_NS_FOR_Pruefnummer",
                          "value": "KBV-Pruefnummer"
                      }
                  }
              ],
              "title": "Arbeitsunfähigkeit",
              "attester":  [
                  {
                      "mode": "legal",
                      "party": {
                          "reference": "Practitioner/f00018f3-fa0d-498e-9bdb-a03ef68d06a6"
                      }
                  }
              ],
              "custodian": {
                  "reference": "Organization/cf042e44-086a-4d51-9c77-172f9a972e3b"
              },
              "section":  [
                  {
                      "code": {
                          "coding":  [
                              {
                                  "system": "https://fhir.kbv.de/CodeSystem/KBV_CS_FOR_Section_Type",
                                  "code": "ICD"
                              }
                          ]
                      },
                      "entry":  [
                          {
                              "reference": "Condition/a246b026-c47c-4257-abed-9887ed7996eb"
                          }
                      ]
                  },
                  {
                      "code": {
                          "coding":  [
                              {
                                  "system": "https://fhir.kbv.de/CodeSystem/KBV_CS_FOR_Section_Type",
                                  "code": "ICD"
                              }
                          ]
                      },
                      "entry":  [
                          {
                              "reference": "Condition/854ff3b2-f0ca-41f9-9bd1-0204f51a847e"
                          }
                      ]
                  },
                  {
                      "code": {
                          "coding":  [
                              {
                                  "system": "https://fhir.kbv.de/CodeSystem/KBV_CS_FOR_Section_Type",
                                  "code": "ICD"
                              }
                          ]
                      },
                      "entry":  [
                          {
                              "reference": "Condition/065b2388-e4da-40ac-a459-2f392a0a41d9"
                          }
                      ]
                  },
                  {
                      "code": {
                          "coding":  [
                              {
                                  "system": "https://fhir.kbv.de/CodeSystem/KBV_CS_FOR_Section_Type",
                                  "code": "ICD"
                              }
                          ]
                      },
                      "entry":  [
                          {
                              "reference": "Condition/bc96a462-2ecf-4c63-9b22-bc02bb8f1155"
                          }
                      ]
                  },
                  {
                      "code": {
                          "coding":  [
                              {
                                  "system": "https://fhir.kbv.de/CodeSystem/KBV_CS_FOR_Section_Type",
                                  "code": "ICD"
                              }
                          ]
                      },
                      "entry":  [
                          {
                              "reference": "Condition/0d27fa35-55d9-48d0-b42e-d3bb3f85edfb"
                          }
                      ]
                  },
                  {
                      "code": {
                          "coding":  [
                              {
                                  "system": "https://fhir.kbv.de/CodeSystem/KBV_CS_FOR_Section_Type",
                                  "code": "ICD"
                              }
                          ]
                      },
                      "entry":  [
                          {
                              "reference": "Condition/35a2833d-0cbd-49d4-86f8-c97a64154890"
                          }
                      ]
                  },
                  {
                      "code": {
                          "coding":  [
                              {
                                  "system": "https://fhir.kbv.de/CodeSystem/KBV_CS_FOR_Section_Type",
                                  "code": "ICD_Text"
                              }
                          ]
                      },
                      "entry":  [
                          {
                              "reference": "Condition/2902efb7-5227-4c43-aee9-34d4a25add21"
                          }
                      ]
                  },
                  {
                      "code": {
                          "coding":  [
                              {
                                  "system": "https://fhir.kbv.de/CodeSystem/KBV_CS_FOR_Section_Type",
                                  "code": "AU_Condition"
                              }
                          ]
                      },
                      "entry":  [
                          {
                              "reference": "Condition/2f8638b4-cf33-4afe-bdbc-8477b3cc1bac"
                          }
                      ]
                  },
                  {
                      "code": {
                          "coding":  [
                              {
                                  "system": "https://fhir.kbv.de/CodeSystem/KBV_CS_FOR_Section_Type",
                                  "code": "Coverage"
                              }
                          ]
                      },
                      "entry":  [
                          {
                              "reference": "Coverage/1b1ffb6e-eb05-43d7-87eb-e7818fe9661a"
                          }
                      ]
                  }
              ]
          }
      },
      {
          "fullUrl": "http://pvs.praxis-topp-gluecklich.local/fhir/Patient/9774f67f-a238-4daf-b4e6-679deeef3811",
          "resource": {
              "resourceType": "Patient",
              "id": "9774f67f-a238-4daf-b4e6-679deeef3811",
              "meta": {
                  "profile":  [
                      "https://fhir.kbv.de/StructureDefinition/KBV_PR_FOR_Patient|1.1.0"
                  ]
              },
              "identifier":  [
                  {
                      "type": {
                          "coding":  [
                              {
                                  "system": "http://fhir.de/CodeSystem/identifier-type-de-basis",
                                  "code": "GKV"
                              }
                          ]
                      },
                      "system": "http://fhir.de/sid/gkv/kvid-10",
                      "value": "X234567890"
                  }
              ],
              "name":  [
                  {
                      "use": "official",
                      "family": "Königsstein",
                      "_family": {
                          "extension":  [
                              {
                                  "url": "http://hl7.org/fhir/StructureDefinition/humanname-own-name",
                                  "valueString": "Königsstein"
                              }
                          ]
                      },
                      "given":  [
                          "Ludger"
                      ]
                  }
              ],
              "birthDate": "1935-06-22",
              "address":  [
                  {
                      "type": "both",
                      "line":  [
                          "Musterstr. 1"
                      ],
                      "_line":  [
                          {
                              "extension":  [
                                  {
                                      "url": "http://hl7.org/fhir/StructureDefinition/iso21090-ADXP-houseNumber",
                                      "valueString": "1"
                                  },
                                  {
                                      "url": "http://hl7.org/fhir/StructureDefinition/iso21090-ADXP-streetName",
                                      "valueString": "Musterstr."
                                  }
                              ]
                          }
                      ],
                      "city": "Berlin",
                      "postalCode": "10623"
                  }
              ]
          }
      },
      {
          "fullUrl": "http://pvs.praxis-topp-gluecklich.local/fhir/Practitioner/20597e0e-cb2a-45b3-95f0-dc3dbdb617c3",
          "resource": {
              "resourceType": "Practitioner",
              "id": "20597e0e-cb2a-45b3-95f0-dc3dbdb617c3",
              "meta": {
                  "profile":  [
                      "https://fhir.kbv.de/StructureDefinition/KBV_PR_FOR_Practitioner|1.1.0"
                  ]
              },
              "name":  [
                  {
                      "use": "official",
                      "family": "Topp-Glücklich",
                      "_family": {
                          "extension":  [
                              {
                                  "url": "http://hl7.org/fhir/StructureDefinition/humanname-own-name",
                                  "valueString": "Topp-Glücklich"
                              }
                          ]
                      },
                      "given":  [
                          "Udo"
                      ],
                      "prefix":  [
                          "Dr. med."
                      ],
                      "_prefix":  [
                          {
                              "extension":  [
                                  {
                                      "url": "http://hl7.org/fhir/StructureDefinition/iso21090-EN-qualifier",
                                      "valueCode": "AC"
                                  }
                              ]
                          }
                      ]
                  }
              ],
              "qualification":  [
                  {
                      "code": {
                          "coding":  [
                              {
                                  "system": "https://fhir.kbv.de/CodeSystem/KBV_CS_FOR_Qualification_Type",
                                  "code": "03"
                              }
                          ]
                      }
                  },
                  {
                      "code": {
                          "coding":  [
                              {
                                  "system": "https://fhir.kbv.de/CodeSystem/KBV_CS_FOR_Berufsbezeichnung",
                                  "code": "Berufsbezeichnung"
                              }
                          ],
                          "text": "Hausarzt in Weiterbildung"
                      }
                  }
              ]
          }
      },
      {
          "fullUrl": "http://pvs.praxis-topp-gluecklich.local/fhir/Practitioner/f00018f3-fa0d-498e-9bdb-a03ef68d06a6",
          "resource": {
              "resourceType": "Practitioner",
              "id": "f00018f3-fa0d-498e-9bdb-a03ef68d06a6",
              "meta": {
                  "profile":  [
                      "https://fhir.kbv.de/StructureDefinition/KBV_PR_FOR_Practitioner|1.1.0"
                  ]
              },
              "identifier":  [
                  {
                      "type": {
                          "coding":  [
                              {
                                  "system": "http://terminology.hl7.org/CodeSystem/v2-0203",
                                  "code": "LANR"
                              }
                          ]
                      },
                      "system": "https://fhir.kbv.de/NamingSystem/KBV_NS_Base_ANR",
                      "value": "838382202"
                  }
              ],
              "name":  [
                  {
                      "use": "official",
                      "family": "Topp-Glücklich",
                      "_family": {
                          "extension":  [
                              {
                                  "url": "http://hl7.org/fhir/StructureDefinition/humanname-own-name",
                                  "valueString": "Topp-Glücklich"
                              }
                          ]
                      },
                      "given":  [
                          "Hans"
                      ],
                      "prefix":  [
                          "Dr. med."
                      ],
                      "_prefix":  [
                          {
                              "extension":  [
                                  {
                                      "url": "http://hl7.org/fhir/StructureDefinition/iso21090-EN-qualifier",
                                      "valueCode": "AC"
                                  }
                              ]
                          }
                      ]
                  }
              ],
              "qualification":  [
                  {
                      "code": {
                          "coding":  [
                              {
                                  "system": "https://fhir.kbv.de/CodeSystem/KBV_CS_FOR_Qualification_Type",
                                  "code": "00"
                              }
                          ]
                      }
                  },
                  {
                      "code": {
                          "coding":  [
                              {
                                  "system": "https://fhir.kbv.de/CodeSystem/KBV_CS_FOR_Berufsbezeichnung",
                                  "code": "Berufsbezeichnung"
                              }
                          ],
                          "text": "Hausarzt"
                      }
                  }
              ]
          }
      },
      {
          "fullUrl": "http://pvs.praxis-topp-gluecklich.local/fhir/Organization/cf042e44-086a-4d51-9c77-172f9a972e3b",
          "resource": {
              "resourceType": "Organization",
              "id": "cf042e44-086a-4d51-9c77-172f9a972e3b",
              "meta": {
                  "profile":  [
                      "https://fhir.kbv.de/StructureDefinition/KBV_PR_FOR_Organization|1.1.0"
                  ]
              },
              "identifier":  [
                  {
                      "type": {
                          "coding":  [
                              {
                                  "system": "http://terminology.hl7.org/CodeSystem/v2-0203",
                                  "code": "BSNR"
                              }
                          ]
                      },
                      "system": "https://fhir.kbv.de/NamingSystem/KBV_NS_Base_BSNR",
                      "value": "031234567"
                  }
              ],
              "name": "Hausarztpraxis Dr. Topp-Glücklich",
              "telecom":  [
                  {
                      "system": "phone",
                      "value": "0301234567"
                  }
              ],
              "address":  [
                  {
                      "type": "both",
                      "line":  [
                          "Musterstr. 2"
                      ],
                      "_line":  [
                          {
                              "extension":  [
                                  {
                                      "url": "http://hl7.org/fhir/StructureDefinition/iso21090-ADXP-houseNumber",
                                      "valueString": "2"
                                  },
                                  {
                                      "url": "http://hl7.org/fhir/StructureDefinition/iso21090-ADXP-streetName",
                                      "valueString": "Musterstr."
                                  }
                              ]
                          }
                      ],
                      "city": "Berlin",
                      "postalCode": "10623"
                  }
              ]
          }
      },
      {
          "fullUrl": "http://pvs.praxis-topp-gluecklich.local/fhir/Condition/2f8638b4-cf33-4afe-bdbc-8477b3cc1bac",
          "resource": {
              "resourceType": "Condition",
              "id": "2f8638b4-cf33-4afe-bdbc-8477b3cc1bac",
              "meta": {
                  "profile":  [
                      "https://fhir.kbv.de/StructureDefinition/KBV_PR_EAU_Condition_AU|1.1.0"
                  ]
              },
              "extension":  [
                  {
                      "url": "http://hl7.org/fhir/StructureDefinition/condition-assertedDate",
                      "valueDateTime": "2022-09-29"
                  }
              ],
              "clinicalStatus": {
                  "coding":  [
                      {
                          "system": "http://terminology.hl7.org/CodeSystem/condition-clinical",
                          "code": "active"
                      }
                  ]
              },
              "verificationStatus": {
                  "coding":  [
                      {
                          "system": "http://terminology.hl7.org/CodeSystem/condition-ver-status",
                          "code": "confirmed"
                      }
                  ]
              },
              "code": {
                  "coding":  [
                      {
                          "system": "https://fhir.kbv.de/CodeSystem/KBV_CS_SFHIR_KBV_FHIR_DOKUMENTTYPE",
                          "code": "eAU"
                      }
                  ]
              },
              "subject": {
                  "reference": "Patient/9774f67f-a238-4daf-b4e6-679deeef3811"
              },
              "onsetPeriod": {
                  "start": "2022-09-29",
                  "end": "2022-10-06"
              },
              "asserter": {
                  "reference": "Practitioner/20597e0e-cb2a-45b3-95f0-dc3dbdb617c3"
              }
          }
      },
      {
          "fullUrl": "http://pvs.praxis-topp-gluecklich.local/fhir/Coverage/1b1ffb6e-eb05-43d7-87eb-e7818fe9661a",
          "resource": {
              "resourceType": "Coverage",
              "id": "1b1ffb6e-eb05-43d7-87eb-e7818fe9661a",
              "meta": {
                  "profile":  [
                      "https://fhir.kbv.de/StructureDefinition/KBV_PR_FOR_Coverage|1.1.0"
                  ]
              },
              "extension":  [
                  {
                      "url": "http://fhir.de/StructureDefinition/gkv/besondere-personengruppe",
                      "valueCoding": {
                          "system": "https://fhir.kbv.de/CodeSystem/KBV_CS_SFHIR_KBV_PERSONENGRUPPE",
                          "code": "00"
                      }
                  },
                  {
                      "url": "http://fhir.de/StructureDefinition/gkv/dmp-kennzeichen",
                      "valueCoding": {
                          "system": "https://fhir.kbv.de/CodeSystem/KBV_CS_SFHIR_KBV_DMP",
                          "code": "00"
                      }
                  },
                  {
                      "url": "http://fhir.de/StructureDefinition/gkv/wop",
                      "valueCoding": {
                          "system": "https://fhir.kbv.de/CodeSystem/KBV_CS_SFHIR_ITA_WOP",
                          "code": "03"
                      }
                  },
                  {
                      "url": "http://fhir.de/StructureDefinition/gkv/versichertenart",
                      "valueCoding": {
                          "system": "https://fhir.kbv.de/CodeSystem/KBV_CS_SFHIR_KBV_VERSICHERTENSTATUS",
                          "code": "1"
                      }
                  }
              ],
              "status": "active",
              "type": {
                  "coding":  [
                      {
                          "system": "http://fhir.de/CodeSystem/versicherungsart-de-basis",
                          "code": "GKV"
                      }
                  ]
              },
              "beneficiary": {
                  "reference": "Patient/9774f67f-a238-4daf-b4e6-679deeef3811"
              },
              "payor":  [
                  {
                      "identifier": {
                          "system": "http://fhir.de/sid/arge-ik/iknr",
                          "value": "104212059"
                      },
                      "display": "AOK Rheinland/Hamburg"
                  }
              ]
          }
      },
      {
          "fullUrl": "http://pvs.praxis-topp-gluecklich.local/fhir/Condition/a246b026-c47c-4257-abed-9887ed7996eb",
          "resource": {
              "resourceType": "Condition",
              "id": "a246b026-c47c-4257-abed-9887ed7996eb",
              "meta": {
                  "profile":  [
                      "https://fhir.kbv.de/StructureDefinition/KBV_PR_EAU_Condition_ICD|1.1.0"
                  ]
              },
              "clinicalStatus": {
                  "coding":  [
                      {
                          "system": "http://terminology.hl7.org/CodeSystem/condition-clinical",
                          "code": "active"
                      }
                  ]
              },
              "verificationStatus": {
                  "coding":  [
                      {
                          "system": "http://terminology.hl7.org/CodeSystem/condition-ver-status",
                          "code": "confirmed"
                      }
                  ]
              },
              "code": {
                  "coding":  [
                      {
                          "extension":  [
                              {
                                  "url": "http://fhir.de/StructureDefinition/icd-10-gm-diagnosesicherheit",
                                  "valueCoding": {
                                      "system": "https://fhir.kbv.de/CodeSystem/KBV_CS_SFHIR_ICD_DIAGNOSESICHERHEIT",
                                      "code": "G"
                                  }
                              }
                          ],
                          "system": "http://fhir.de/CodeSystem/bfarm/icd-10-gm",
                          "version": "2022",
                          "code": "E10.20"
                      }
                  ]
              },
              "subject": {
                  "reference": "Patient/9774f67f-a238-4daf-b4e6-679deeef3811"
              },
              "asserter": {
                  "reference": "Practitioner/20597e0e-cb2a-45b3-95f0-dc3dbdb617c3"
              }
          }
      },
      {
          "fullUrl": "http://pvs.praxis-topp-gluecklich.local/fhir/Condition/854ff3b2-f0ca-41f9-9bd1-0204f51a847e",
          "resource": {
              "resourceType": "Condition",
              "id": "854ff3b2-f0ca-41f9-9bd1-0204f51a847e",
              "meta": {
                  "profile":  [
                      "https://fhir.kbv.de/StructureDefinition/KBV_PR_EAU_Condition_ICD|1.1.0"
                  ]
              },
              "clinicalStatus": {
                  "coding":  [
                      {
                          "system": "http://terminology.hl7.org/CodeSystem/condition-clinical",
                          "code": "active"
                      }
                  ]
              },
              "verificationStatus": {
                  "coding":  [
                      {
                          "system": "http://terminology.hl7.org/CodeSystem/condition-ver-status",
                          "code": "confirmed"
                      }
                  ]
              },
              "code": {
                  "coding":  [
                      {
                          "extension":  [
                              {
                                  "url": "http://fhir.de/StructureDefinition/icd-10-gm-diagnosesicherheit",
                                  "valueCoding": {
                                      "system": "https://fhir.kbv.de/CodeSystem/KBV_CS_SFHIR_ICD_DIAGNOSESICHERHEIT",
                                      "code": "G"
                                  }
                              }
                          ],
                          "system": "http://fhir.de/CodeSystem/bfarm/icd-10-gm",
                          "version": "2022",
                          "code": "N08.3"
                      }
                  ]
              },
              "subject": {
                  "reference": "Patient/9774f67f-a238-4daf-b4e6-679deeef3811"
              },
              "asserter": {
                  "reference": "Practitioner/20597e0e-cb2a-45b3-95f0-dc3dbdb617c3"
              }
          }
      },
      {
          "fullUrl": "http://pvs.praxis-topp-gluecklich.local/fhir/Condition/065b2388-e4da-40ac-a459-2f392a0a41d9",
          "resource": {
              "resourceType": "Condition",
              "id": "065b2388-e4da-40ac-a459-2f392a0a41d9",
              "meta": {
                  "profile":  [
                      "https://fhir.kbv.de/StructureDefinition/KBV_PR_EAU_Condition_ICD|1.1.0"
                  ]
              },
              "clinicalStatus": {
                  "coding":  [
                      {
                          "system": "http://terminology.hl7.org/CodeSystem/condition-clinical",
                          "code": "active"
                      }
                  ]
              },
              "verificationStatus": {
                  "coding":  [
                      {
                          "system": "http://terminology.hl7.org/CodeSystem/condition-ver-status",
                          "code": "confirmed"
                      }
                  ]
              },
              "code": {
                  "coding":  [
                      {
                          "extension":  [
                              {
                                  "url": "http://fhir.de/StructureDefinition/icd-10-gm-diagnosesicherheit",
                                  "valueCoding": {
                                      "system": "https://fhir.kbv.de/CodeSystem/KBV_CS_SFHIR_ICD_DIAGNOSESICHERHEIT",
                                      "code": "G"
                                  }
                              },
                              {
                                  "url": "http://fhir.de/StructureDefinition/seitenlokalisation",
                                  "valueCoding": {
                                      "system": "https://fhir.kbv.de/CodeSystem/KBV_CS_SFHIR_ICD_SEITENLOKALISATION",
                                      "code": "L"
                                  }
                              }
                          ],
                          "system": "http://fhir.de/CodeSystem/bfarm/icd-10-gm",
                          "version": "2022",
                          "code": "S42.3"
                      }
                  ]
              },
              "subject": {
                  "reference": "Patient/9774f67f-a238-4daf-b4e6-679deeef3811"
              },
              "asserter": {
                  "reference": "Practitioner/20597e0e-cb2a-45b3-95f0-dc3dbdb617c3"
              }
          }
      },
      {
          "fullUrl": "http://pvs.praxis-topp-gluecklich.local/fhir/Condition/bc96a462-2ecf-4c63-9b22-bc02bb8f1155",
          "resource": {
              "resourceType": "Condition",
              "id": "bc96a462-2ecf-4c63-9b22-bc02bb8f1155",
              "meta": {
                  "profile":  [
                      "https://fhir.kbv.de/StructureDefinition/KBV_PR_EAU_Condition_ICD|1.1.0"
                  ]
              },
              "clinicalStatus": {
                  "coding":  [
                      {
                          "system": "http://terminology.hl7.org/CodeSystem/condition-clinical",
                          "code": "active"
                      }
                  ]
              },
              "verificationStatus": {
                  "coding":  [
                      {
                          "system": "http://terminology.hl7.org/CodeSystem/condition-ver-status",
                          "code": "confirmed"
                      }
                  ]
              },
              "code": {
                  "coding":  [
                      {
                          "extension":  [
                              {
                                  "url": "http://fhir.de/StructureDefinition/icd-10-gm-diagnosesicherheit",
                                  "valueCoding": {
                                      "system": "https://fhir.kbv.de/CodeSystem/KBV_CS_SFHIR_ICD_DIAGNOSESICHERHEIT",
                                      "code": "G"
                                  }
                              },
                              {
                                  "url": "http://fhir.de/StructureDefinition/seitenlokalisation",
                                  "valueCoding": {
                                      "system": "https://fhir.kbv.de/CodeSystem/KBV_CS_SFHIR_ICD_SEITENLOKALISATION",
                                      "code": "R"
                                  }
                              }
                          ],
                          "system": "http://fhir.de/CodeSystem/bfarm/icd-10-gm",
                          "version": "2022",
                          "code": "S82.28"
                      }
                  ]
              },
              "subject": {
                  "reference": "Patient/9774f67f-a238-4daf-b4e6-679deeef3811"
              },
              "asserter": {
                  "reference": "Practitioner/20597e0e-cb2a-45b3-95f0-dc3dbdb617c3"
              }
          }
      },
      {
          "fullUrl": "http://pvs.praxis-topp-gluecklich.local/fhir/Condition/0d27fa35-55d9-48d0-b42e-d3bb3f85edfb",
          "resource": {
              "resourceType": "Condition",
              "id": "0d27fa35-55d9-48d0-b42e-d3bb3f85edfb",
              "meta": {
                  "profile":  [
                      "https://fhir.kbv.de/StructureDefinition/KBV_PR_EAU_Condition_ICD|1.1.0"
                  ]
              },
              "clinicalStatus": {
                  "coding":  [
                      {
                          "system": "http://terminology.hl7.org/CodeSystem/condition-clinical",
                          "code": "active"
                      }
                  ]
              },
              "verificationStatus": {
                  "coding":  [
                      {
                          "system": "http://terminology.hl7.org/CodeSystem/condition-ver-status",
                          "code": "provisional"
                      }
                  ]
              },
              "code": {
                  "coding":  [
                      {
                          "extension":  [
                              {
                                  "url": "http://fhir.de/StructureDefinition/icd-10-gm-diagnosesicherheit",
                                  "valueCoding": {
                                      "system": "https://fhir.kbv.de/CodeSystem/KBV_CS_SFHIR_ICD_DIAGNOSESICHERHEIT",
                                      "code": "V"
                                  }
                              }
                          ],
                          "system": "http://fhir.de/CodeSystem/bfarm/icd-10-gm",
                          "version": "2022",
                          "code": "Q01.9"
                      }
                  ]
              },
              "subject": {
                  "reference": "Patient/9774f67f-a238-4daf-b4e6-679deeef3811"
              },
              "asserter": {
                  "reference": "Practitioner/20597e0e-cb2a-45b3-95f0-dc3dbdb617c3"
              }
          }
      },
      {
          "fullUrl": "http://pvs.praxis-topp-gluecklich.local/fhir/Condition/35a2833d-0cbd-49d4-86f8-c97a64154890",
          "resource": {
              "resourceType": "Condition",
              "id": "35a2833d-0cbd-49d4-86f8-c97a64154890",
              "meta": {
                  "profile":  [
                      "https://fhir.kbv.de/StructureDefinition/KBV_PR_EAU_Condition_ICD|1.1.0"
                  ]
              },
              "clinicalStatus": {
                  "coding":  [
                      {
                          "system": "http://terminology.hl7.org/CodeSystem/condition-clinical",
                          "code": "resolved"
                      }
                  ]
              },
              "verificationStatus": {
                  "coding":  [
                      {
                          "system": "http://terminology.hl7.org/CodeSystem/condition-ver-status",
                          "code": "confirmed"
                      }
                  ]
              },
              "code": {
                  "coding":  [
                      {
                          "extension":  [
                              {
                                  "url": "http://fhir.de/StructureDefinition/icd-10-gm-diagnosesicherheit",
                                  "valueCoding": {
                                      "system": "https://fhir.kbv.de/CodeSystem/KBV_CS_SFHIR_ICD_DIAGNOSESICHERHEIT",
                                      "code": "Z"
                                  }
                              }
                          ],
                          "system": "http://fhir.de/CodeSystem/bfarm/icd-10-gm",
                          "version": "2022",
                          "code": "S22.32"
                      }
                  ]
              },
              "subject": {
                  "reference": "Patient/9774f67f-a238-4daf-b4e6-679deeef3811"
              },
              "asserter": {
                  "reference": "Practitioner/20597e0e-cb2a-45b3-95f0-dc3dbdb617c3"
              }
          }
      },
      {
          "fullUrl": "http://pvs.praxis-topp-gluecklich.local/fhir/Condition/2902efb7-5227-4c43-aee9-34d4a25add21",
          "resource": {
              "resourceType": "Condition",
              "id": "2902efb7-5227-4c43-aee9-34d4a25add21",
              "meta": {
                  "profile":  [
                      "https://fhir.kbv.de/StructureDefinition/KBV_PR_EAU_Condition_Text|1.1.0"
                  ]
              },
              "verificationStatus": {
                  "coding":  [
                      {
                          "system": "http://terminology.hl7.org/CodeSystem/condition-ver-status",
                          "code": "confirmed"
                      }
                  ]
              },
              "code": {
                  "text": "Ein sehr kranker Patient"
              },
              "subject": {
                  "reference": "Patient/9774f67f-a238-4daf-b4e6-679deeef3811"
              },
              "asserter": {
                  "reference": "Practitioner/20597e0e-cb2a-45b3-95f0-dc3dbdb617c3"
              }
          }
      }
  ]
}
