{
  "resourceType": "Bundle",
  "id": "6413570d-d8ce-4afa-9f6e-0950111a4cb8",
  "meta": {
      "lastUpdated": "2022-09-29T12:30:02Z",
      "profile":  [
          "https://fhir.kbv.de/StructureDefinition/KBV_PR_EAU_Storno_Bundle|1.1.0"
      ]
  },
  "identifier": {
      "system": "urn:ietf:rfc:3986",
      "value": "urn:uuid:0e9c402b-a1fc-4e21-a248-6dd7fb99d99c"
  },
  "type": "document",
  "timestamp": "2022-09-29T12:30:02Z",
  "entry":  [
      {
          "fullUrl": "http://pvs.praxis-topp-gluecklich.local/fhir/Composition/6753a10a-f993-4038-9d9c-515774887074",
          "resource": {
              "resourceType": "Composition",
              "id": "6753a10a-f993-4038-9d9c-515774887074",
              "meta": {
                  "profile":  [
                      "https://fhir.kbv.de/StructureDefinition/KBV_PR_EAU_Storno_Composition|1.1.0"
                  ]
              },
              "status": "final",
              "type": {
                  "coding":  [
                      {
                          "system": "https://fhir.kbv.de/CodeSystem/KBV_CS_SFHIR_KBV_FORMULAR_ART",
                          "code": "e013"
                      }
                  ]
              },
              "date": "2022-08-15",
              "author":  [
                  {
                      "reference": "Practitioner/20597e0e-cb2a-45b3-95f0-dc3dbdb617c3",
                      "type": "Practitioner"
                  }
              ],
              "title": "Storno eAU",
              "custodian": {
                  "reference": "Organization/cf042e44-086a-4d51-9c77-172f9a972e3b"
              },
              "section":  [
                  {
                      "entry":  [
                          {
                              "reference": "List/e49bed53-9fe3-47c3-9271-ee07fc919793"
                          }
                      ]
                  }
              ]
          }
      },
      {
          "fullUrl": "http://pvs.praxis-topp-gluecklich.local/fhir/Practitioner/20597e0e-cb2a-45b3-95f0-dc3dbdb617c3",
          "resource": {
              "resourceType": "Practitioner",
              "id": "20597e0e-cb2a-45b3-95f0-dc3dbdb617c3",
              "meta": {
                  "profile":  [
                      "https://fhir.kbv.de/StructureDefinition/KBV_PR_FOR_Practitioner|1.1.0"
                  ]
              },
              "identifier":  [
                  {
                      "type": {
                          "coding":  [
                              {
                                  "system": "http://terminology.hl7.org/CodeSystem/v2-0203",
                                  "code": "LANR"
                              }
                          ]
                      },
                      "system": "https://fhir.kbv.de/NamingSystem/KBV_NS_Base_ANR",
                      "value": "838382202"
                  }
              ],
              "name":  [
                  {
                      "use": "official",
                      "family": "Topp-Glücklich",
                      "_family": {
                          "extension":  [
                              {
                                  "url": "http://hl7.org/fhir/StructureDefinition/humanname-own-name",
                                  "valueString": "Topp-Glücklich"
                              }
                          ]
                      },
                      "given":  [
                          "Hans"
                      ],
                      "prefix":  [
                          "Dr. med."
                      ],
                      "_prefix":  [
                          {
                              "extension":  [
                                  {
                                      "url": "http://hl7.org/fhir/StructureDefinition/iso21090-EN-qualifier",
                                      "valueCode": "AC"
                                  }
                              ]
                          }
                      ]
                  }
              ],
              "qualification":  [
                  {
                      "code": {
                          "coding":  [
                              {
                                  "system": "https://fhir.kbv.de/CodeSystem/KBV_CS_FOR_Qualification_Type",
                                  "code": "00"
                              }
                          ]
                      }
                  },
                  {
                      "code": {
                          "coding":  [
                              {
                                  "system": "https://fhir.kbv.de/CodeSystem/KBV_CS_FOR_Berufsbezeichnung",
                                  "code": "Berufsbezeichnung"
                              }
                          ],
                          "text": "Hausarzt"
                      }
                  }
              ]
          }
      },
      {
          "fullUrl": "http://pvs.praxis-topp-gluecklich.local/fhir/Organization/cf042e44-086a-4d51-9c77-172f9a972e3b",
          "resource": {
              "resourceType": "Organization",
              "id": "cf042e44-086a-4d51-9c77-172f9a972e3b",
              "meta": {
                  "profile":  [
                      "https://fhir.kbv.de/StructureDefinition/KBV_PR_FOR_Organization|1.1.0"
                  ]
              },
              "identifier":  [
                  {
                      "type": {
                          "coding":  [
                              {
                                  "system": "http://terminology.hl7.org/CodeSystem/v2-0203",
                                  "code": "BSNR"
                              }
                          ]
                      },
                      "system": "https://fhir.kbv.de/NamingSystem/KBV_NS_Base_BSNR",
                      "value": "031234567"
                  }
              ],
              "name": "Hausarztpraxis Dr. Topp-Glücklich",
              "telecom":  [
                  {
                      "system": "phone",
                      "value": "0301234567"
                  }
              ],
              "address":  [
                  {
                      "type": "both",
                      "line":  [
                          "Musterstr. 2"
                      ],
                      "_line":  [
                          {
                              "extension":  [
                                  {
                                      "url": "http://hl7.org/fhir/StructureDefinition/iso21090-ADXP-houseNumber",
                                      "valueString": "2"
                                  },
                                  {
                                      "url": "http://hl7.org/fhir/StructureDefinition/iso21090-ADXP-streetName",
                                      "valueString": "Musterstr."
                                  }
                              ]
                          }
                      ],
                      "city": "Berlin",
                      "postalCode": "10623"
                  }
              ]
          }
      },
      {
          "fullUrl": "http://pvs.praxis-topp-gluecklich.local/fhir/List/e49bed53-9fe3-47c3-9271-ee07fc919793",
          "resource": {
              "resourceType": "List",
              "id": "e49bed53-9fe3-47c3-9271-ee07fc919793",
              "meta": {
                  "profile":  [
                      "https://fhir.kbv.de/StructureDefinition/KBV_PR_EAU_Storno|1.1.0"
                  ]
              },
              "status": "current",
              "mode": "changes",
              "entry":  [
                  {
                      "deleted": true,
                      "item": {
                          "identifier": {
                              "system": "urn:ietf:rfc:3986",
                              "value": "urn:uuid:2ed6995a-ddcb-4af9-af62-80dac413408b"
                          }
                      }
                  }
              ]
          }
      }
  ]
}
